<?xml version="1.0"?>
<Bundle xmlns="http://hl7.org/fhir">
	<id value="bundle-example" />
	<!-- this example bundle is a search set -->
	<meta>
		<lastUpdated value="2014-08-18T01:43:30Z" />
		<!-- when the data was extracted -->
		<tag>
			<system value="http://histream/source/id" />
			<code value="123" />
		</tag>
		<!-- .. -->

	</meta>
	<!-- set of resources collected into a single package without processing 
		obliations beyond persistence -->
	<type value="collection" />
	<!-- when the bundle was assembled -->
	<timestamp value="2014-08-18T01:43:30Z" />
	<!-- first entries with location resources to satisfy the location references -->
	<entry>
		<fullUrl value="https://example.com/base/Location/l1" />
		<resource>
			<Location>
				<id value="l1" />
			</Location>
		</resource>
	</entry>
	<entry>
		<fullUrl value="https://example.com/base/Patient/p1" />
		<resource>
			<Patient>
				<id value="p1" />
				<identifier><!-- optional -->
					<system value="urn:oid:1.2.3.4.5.6" />
					<value value="12345" />
				</identifier>
				<gender value="male" />
				<birthDate value="2010-01-01" />
				<!-- or only boolean if date unknown <deceasedBoolean value="true"/> -->
				<deceasedDateTime value="2090" />
			</Patient>
		</resource>
	</entry>
	<entry>
		<fullUrl value="https://example.com/base/Encounter/e1" />
		<resource>
			<Encounter>
				<id value="e1" />
				<identifier><!-- optional -->
					<system value="urn:oid:1.2.3.4.5.6" />
					<value value="12345" />
				</identifier>
				<status value="in-progress" />
				<class>
					<system	value="http://terminology.hl7.org/CodeSystem/v3-ActCode" />
					<code value="AMB" />
				</class>
				<subject>
					<reference value="Patient/p1" />
				</subject>
				<period>
					<start value="2015-01-17T16:00:00+10:00" />
					<end value="2015-01-17T16:30:00+10:00" />
				</period>
				<location>
					<location>
						<reference value="Location/l2" />
					</location>
				</location>
			</Encounter>
		</resource>
	</entry>
	<entry>
		<fullUrl value="https://example.com/base/Observation/o1" />
		<resource>
			<Observation>
				<id value="o1" />
				<status value="final" />
				<code>
					<coding>
						<system value="http://loinc.org" />
						<code value="8867-4" />
						<display value="Heart rate" />
					</coding>
					<text value="Heart rate" />
				</code>
				<subject>
					<reference value="Patient/p1" />
				</subject>
				<encounter>
					<reference value="Encounter/e1" />
				</encounter>
				<effectiveDateTime value="1999-07-02" />
				<valueQuantity>
					<value value="44" />
					<unit value="beats/minute" />
					<system value="http://unitsofmeasure.org" />
					<code value="/min" />
				</valueQuantity>
				<component>
					<code>
						<coding>
							<system value="http://loinc.org" />
							<code value="9267-6" />
							<display value="Glasgow coma score eye opening" />
						</coding>
						<text value="Eyes" />
					</code>
					<valueCodeableConcept>
						<coding>
							<system value="http://acme.ec/codes" />
							<code value="4" />
							<display value="Opens eyes spontaneously" />
						</coding>
					</valueCodeableConcept>
				</component>

				<component>
					<code>
						<coding>
							<system value="http://loinc.org" />
							<code value="9267-6" />
							<display value="Glasgow coma score eye opening" />
						</coding>
						<text value="Eyes" />
					</code>
					<valueCodeableConcept>
						<coding>
							<system value="http://acme.ec/codes" />
							<code value="4" />
							<display value="Opens eyes spontaneously" />
						</coding>
					</valueCodeableConcept>
				</component>
			</Observation>
		</resource>
	</entry>

</Bundle> 